File: content/data/2022-12-02_b.3021_0097_BWS_BW1_E.1.1x4.0_wbg_HAL3_Tidas.txt
parameter,value1,value2
[SINGLE REFLECTANCE MEASUREMENT], ,
author,Gauthier Patin,
date_time,2022-12-02 11:25:17,
project,1.1_stereo-MFT,
[SAMPLE DATA], ,
sample_type,BWS,
sample_nb,nb.0097,
name,BW1,
pigment,C.I. Acid Blue 104,
binding,unknown,
colour,blue,
ratio,1,
thickness_microns,unknown,
sample_support,wool,
sample_date,2019,
comments,,
[DEVICE DATA], ,
device,Tidas_S 400,
geometry,45° : 0°,
option,E.1.1x4.0,
lamp,"HAL3_Ocean Optics, HL-2000-FHSA-LL",
filter,noFilter,
fiber_ill,UVIR600um2,
white_ref,"WR1_Dr Lange, pressed barium sulphate powder",
[ANALYSIS DATA], ,
Id,b.3021,
background,wbg,
specular_component,excluded,
integration_time_ms,80.00,
average,20,
measurements_N,1,
[COLORIMETRIC DATA], ,
observer,10deg,2deg
illuminant,D65,D50
L*,46.96,43.75
a*,-4.95,-2.91
b*,-40.59,-45.45
C*,40.89,45.54
h,263.05,266.34
[MEASUREMENT DATA], ,
wavelength_nm,reflectance,
305,0.6914,
306,0.6948,
307,0.6974,
308,0.694,
309,0.6907,
310,0.6874,
311,0.6843,
312,0.6813,
313,0.6782,
314,0.6766,
315,0.6761,
316,0.6756,
317,0.6755,
318,0.6763,
319,0.6772,
320,0.6781,
321,0.6735,
322,0.6685,
323,0.6636,
324,0.6608,
325,0.6593,
326,0.6579,
327,0.6562,
328,0.654,
329,0.6519,
330,0.6498,
331,0.6487,
332,0.6477,
333,0.6467,
334,0.6406,
335,0.6326,
336,0.6247,
337,0.6199,
338,0.6194,
339,0.6189,
340,0.6175,
341,0.609,
342,0.6004,
343,0.5918,
344,0.5892,
345,0.588,
346,0.5868,
347,0.5827,
348,0.5758,
349,0.5688,
350,0.5626,
351,0.5591,
352,0.5557,
353,0.5523,
354,0.5497,
355,0.5471,
356,0.5446,
357,0.5404,
358,0.5348,
359,0.5292,
360,0.5244,
361,0.5218,
362,0.5191,
363,0.5165,
364,0.5155,
365,0.5146,
366,0.5136,
367,0.5083,
368,0.5005,
369,0.4926,
370,0.4859,
371,0.4817,
372,0.4775,
373,0.4733,
374,0.462,
375,0.4508,
376,0.4395,
377,0.4274,
378,0.415,
379,0.4025,
380,0.355,
381,0.2452,
382,0.1354,
383,0.0337,
384,0.1263,
385,0.2189,
386,0.3115,
387,0.3347,
388,0.331,
389,0.3273,
390,0.325,
391,0.3248,
392,0.3245,
393,0.3244,
394,0.326,
395,0.3276,
396,0.3292,
397,0.3321,
398,0.3355,
399,0.3388,
400,0.3425,
401,0.3465,
402,0.3506,
403,0.3547,
404,0.359,
405,0.3633,
406,0.3677,
407,0.3716,
408,0.3755,
409,0.3793,
410,0.383,
411,0.3865,
412,0.3899,
413,0.3933,
414,0.3963,
415,0.3992,
416,0.4021,
417,0.4045,
418,0.4067,
419,0.4089,
420,0.411,
421,0.4129,
422,0.4148,
423,0.4167,
424,0.4184,
425,0.4201,
426,0.4218,
427,0.4233,
428,0.4247,
429,0.4262,
430,0.4275,
431,0.4285,
432,0.4296,
433,0.4306,
434,0.4314,
435,0.4322,
436,0.433,
437,0.4336,
438,0.4341,
439,0.4347,
440,0.4352,
441,0.4358,
442,0.4363,
443,0.4367,
444,0.4369,
445,0.437,
446,0.4372,
447,0.4372,
448,0.4371,
449,0.4371,
450,0.4368,
451,0.4364,
452,0.4359,
453,0.4354,
454,0.4348,
455,0.4342,
456,0.4335,
457,0.4326,
458,0.4317,
459,0.4308,
460,0.4298,
461,0.4286,
462,0.4275,
463,0.4262,
464,0.4246,
465,0.423,
466,0.4215,
467,0.4196,
468,0.4178,
469,0.4159,
470,0.4138,
471,0.4116,
472,0.4094,
473,0.4071,
474,0.4046,
475,0.402,
476,0.3994,
477,0.3965,
478,0.3936,
479,0.3907,
480,0.3877,
481,0.3845,
482,0.3814,
483,0.3781,
484,0.3746,
485,0.3712,
486,0.3677,
487,0.364,
488,0.3602,
489,0.3565,
490,0.3526,
491,0.3486,
492,0.3447,
493,0.3406,
494,0.3364,
495,0.3321,
496,0.3279,
497,0.3235,
498,0.3192,
499,0.3148,
500,0.3103,
501,0.3058,
502,0.3013,
503,0.2968,
504,0.2922,
505,0.2877,
506,0.2831,
507,0.2785,
508,0.274,
509,0.2694,
510,0.2649,
511,0.2603,
512,0.2558,
513,0.2513,
514,0.2468,
515,0.2424,
516,0.2379,
517,0.2336,
518,0.2292,
519,0.2249,
520,0.2206,
521,0.2164,
522,0.2122,
523,0.208,
524,0.2039,
525,0.1999,
526,0.1958,
527,0.1919,
528,0.188,
529,0.1841,
530,0.1803,
531,0.1766,
532,0.1728,
533,0.1691,
534,0.1655,
535,0.162,
536,0.1584,
537,0.155,
538,0.1516,
539,0.1482,
540,0.1449,
541,0.1418,
542,0.1386,
543,0.1355,
544,0.1326,
545,0.1297,
546,0.1268,
547,0.1241,
548,0.1215,
549,0.1188,
550,0.1163,
551,0.1139,
552,0.1116,
553,0.1092,
554,0.1071,
555,0.105,
556,0.1028,
557,0.1009,
558,0.099,
559,0.0972,
560,0.0954,
561,0.0938,
562,0.0921,
563,0.0905,
564,0.0891,
565,0.0877,
566,0.0863,
567,0.0851,
568,0.0838,
569,0.0826,
570,0.0815,
571,0.0804,
572,0.0794,
573,0.0784,
574,0.0775,
575,0.0766,
576,0.0757,
577,0.0749,
578,0.0741,
579,0.0733,
580,0.0726,
581,0.0719,
582,0.0712,
583,0.0705,
584,0.0698,
585,0.0692,
586,0.0685,
587,0.0679,
588,0.0673,
589,0.0667,
590,0.0661,
591,0.0655,
592,0.0649,
593,0.0643,
594,0.0637,
595,0.0631,
596,0.0625,
597,0.0619,
598,0.0613,
599,0.0607,
600,0.0601,
601,0.0596,
602,0.059,
603,0.0584,
604,0.0579,
605,0.0574,
606,0.0569,
607,0.0564,
608,0.056,
609,0.0556,
610,0.0552,
611,0.055,
612,0.0547,
613,0.0544,
614,0.0543,
615,0.0542,
616,0.0541,
617,0.0541,
618,0.0542,
619,0.0542,
620,0.0544,
621,0.0546,
622,0.0549,
623,0.0552,
624,0.0558,
625,0.0564,
626,0.057,
627,0.0578,
628,0.0587,
629,0.0596,
630,0.0607,
631,0.062,
632,0.0634,
633,0.0647,
634,0.0665,
635,0.0684,
636,0.0703,
637,0.0725,
638,0.0749,
639,0.0774,
640,0.08,
641,0.0832,
642,0.0864,
643,0.0896,
644,0.0934,
645,0.0974,
646,0.1014,
647,0.1058,
648,0.1106,
649,0.1155,
650,0.1204,
651,0.1261,
652,0.1318,
653,0.1375,
654,0.1439,
655,0.1503,
656,0.1568,
657,0.1635,
658,0.1706,
659,0.1777,
660,0.1849,
661,0.1925,
662,0.2001,
663,0.2077,
664,0.2157,
665,0.2238,
666,0.2318,
667,0.2401,
668,0.2486,
669,0.257,
670,0.2655,
671,0.2743,
672,0.2831,
673,0.2919,
674,0.3007,
675,0.3096,
676,0.3185,
677,0.3274,
678,0.3363,
679,0.3452,
680,0.3541,
681,0.363,
682,0.3718,
683,0.3807,
684,0.3893,
685,0.3978,
686,0.4063,
687,0.4146,
688,0.4227,
689,0.4309,
690,0.4389,
691,0.4464,
692,0.454,
693,0.4615,
694,0.4686,
695,0.4755,
696,0.4824,
697,0.489,
698,0.4952,
699,0.5015,
700,0.5077,
701,0.5133,
702,0.5188,
703,0.5244,
704,0.5295,
705,0.5344,
706,0.5393,
707,0.5439,
708,0.5481,
709,0.5523,
710,0.5565,
711,0.5601,
712,0.5637,
713,0.5673,
714,0.5704,
715,0.5734,
716,0.5765,
717,0.5793,
718,0.5818,
719,0.5843,
720,0.5867,
721,0.5888,
722,0.5909,
723,0.5929,
724,0.5947,
725,0.5963,
726,0.598,
727,0.5995,
728,0.6009,
729,0.6023,
730,0.6036,
731,0.6047,
732,0.6059,
733,0.607,
734,0.608,
735,0.6089,
736,0.6098,
737,0.6106,
738,0.6114,
739,0.6121,
740,0.6128,
741,0.6133,
742,0.6139,
743,0.6144,
744,0.6148,
745,0.6152,
746,0.6156,
747,0.616,
748,0.6162,
749,0.6165,
750,0.6168,
751,0.617,
752,0.6173,
753,0.6175,
754,0.6177,
755,0.6179,
756,0.6181,
757,0.6183,
758,0.6184,
759,0.6185,
760,0.6186,
761,0.6187,
762,0.6188,
763,0.6188,
764,0.6189,
765,0.6189,
766,0.6189,
767,0.619,
768,0.619,
769,0.619,
770,0.619,
771,0.6189,
772,0.6189,
773,0.6188,
774,0.6188,
775,0.6187,
776,0.6186,
777,0.6186,
778,0.6185,
779,0.6184,
780,0.6184,
781,0.6183,
782,0.6183,
783,0.6183,
784,0.6182,
785,0.6182,
786,0.6181,
787,0.6181,
788,0.6181,
789,0.618,
790,0.618,
791,0.6179,
792,0.6178,
793,0.6177,
794,0.6176,
795,0.6175,
796,0.6174,
797,0.6174,
798,0.6173,
799,0.6172,
800,0.6171,
801,0.617,
802,0.6169,
803,0.6168,
804,0.6166,
805,0.6164,
806,0.6162,
807,0.6161,
808,0.6159,
809,0.6158,
810,0.6156,
811,0.6155,
812,0.6154,
813,0.6152,
814,0.6152,
815,0.6151,
816,0.615,
817,0.6149,
818,0.6149,
819,0.6149,
820,0.6149,
821,0.6149,
822,0.6149,
823,0.6148,
824,0.6147,
825,0.6146,
826,0.6146,
827,0.6145,
828,0.6144,
829,0.6142,
830,0.6142,
831,0.6141,
832,0.614,
833,0.6139,
834,0.6138,
835,0.6137,
836,0.6136,
837,0.6135,
838,0.6134,
839,0.6133,
840,0.6132,
841,0.6131,
842,0.6131,
843,0.6131,
844,0.613,
845,0.613,
846,0.613,
847,0.6129,
848,0.6128,
849,0.6127,
850,0.6127,
851,0.6128,
852,0.6128,
853,0.6128,
854,0.6128,
855,0.6128,
856,0.6128,
857,0.6128,
858,0.6128,
859,0.6127,
860,0.6127,
861,0.6125,
862,0.6124,
863,0.6123,
864,0.6122,
865,0.6122,
866,0.6121,
867,0.6121,
868,0.612,
869,0.612,
870,0.6119,
871,0.6119,
872,0.6118,
873,0.6117,
874,0.6116,
875,0.6115,
876,0.6114,
877,0.6114,
878,0.6113,
879,0.6113,
880,0.6113,
881,0.6114,
882,0.6114,
883,0.6114,
884,0.6114,
885,0.6114,
886,0.6114,
887,0.6114,
888,0.6114,
889,0.6114,
890,0.6114,
891,0.6113,
892,0.6112,
893,0.6112,
894,0.6112,
895,0.6112,
896,0.6112,
897,0.6111,
898,0.6111,
899,0.611,
900,0.6109,
901,0.6108,
902,0.6108,
903,0.6107,
904,0.6107,
905,0.6106,
906,0.6106,
907,0.6106,
908,0.6105,
909,0.6105,
910,0.6105,
911,0.6105,
912,0.6106,
913,0.6106,
914,0.6106,
915,0.6106,
916,0.6106,
917,0.6107,
918,0.6108,
919,0.6108,
920,0.6108,
921,0.6107,
922,0.6107,
923,0.6109,
924,0.6111,
925,0.6113,
926,0.6114,
927,0.6114,
928,0.6114,
929,0.6115,
930,0.6115,
931,0.6115,
932,0.6115,
933,0.6115,
934,0.6114,
935,0.6114,
936,0.6114,
937,0.6114,
938,0.6113,
939,0.6115,
940,0.6117,
941,0.612,
942,0.6121,
943,0.6123,
944,0.6124,
945,0.6125,
946,0.6126,
947,0.6127,
948,0.6128,
949,0.6129,
950,0.6129,
951,0.613,
952,0.613,
953,0.6129,
954,0.6129,
955,0.6128,
956,0.6127,
957,0.6126,
958,0.6125,
959,0.6124,
960,0.6124,
961,0.6123,
962,0.6123,
963,0.6124,
964,0.6125,
965,0.6123,
966,0.6121,
967,0.6119,
968,0.6118,
969,0.612,
970,0.6122,
971,0.6123,
972,0.6122,
973,0.612,
974,0.6119,
975,0.6122,
976,0.6125,
977,0.6129,
978,0.6131,
979,0.6133,
980,0.6134,
981,0.6136,
982,0.6138,
983,0.6139,
984,0.614,
985,0.6141,
986,0.6141,
987,0.6141,
988,0.6141,
989,0.6142,
990,0.6142,
991,0.6142,
992,0.6141,
993,0.614,
994,0.614,
995,0.6141,
996,0.6142,
997,0.6144,
998,0.6144,
999,0.6145,
1000,0.6145,
1001,0.6142,
1002,0.6138,
1003,0.6134,
1004,0.6131,
1005,0.6128,
1006,0.6126,
1007,0.6125,
1008,0.6126,
1009,0.6127,
1010,0.6128,
1011,0.6126,
1012,0.6124,
1013,0.6122,
1014,0.6126,
1015,0.613,
1016,0.6134,
1017,0.6135,
1018,0.6136,
1019,0.6136,
1020,0.6139,
1021,0.6146,
1022,0.6153,
1023,0.6159,
1024,0.6162,
1025,0.6165,
1026,0.6168,
1027,0.6171,
1028,0.6173,
1029,0.6176,
1030,0.6178,
1031,0.6179,
1032,0.618,
1033,0.6182,
1034,0.6184,
1035,0.6185,
1036,0.6185,
1037,0.618,
1038,0.6175,
1039,0.617,
1040,0.6162,
1041,0.6154,
1042,0.6146,
1043,0.6146,
1044,0.6148,
1045,0.615,
1046,0.6148,
1047,0.6142,
1048,0.6136,
1049,0.6131,
1050,0.6126,
1051,0.6121,
1052,0.6116,
1053,0.6113,
1054,0.6109,
1055,0.6106,
1056,0.6102,
1057,0.6099,
1058,0.6096,
1059,0.6094,
1060,0.6091,
1061,0.6088,
1062,0.6086,
1063,0.6084,
1064,0.6082,
1065,0.6079,
1066,0.607,
1067,0.606,
1068,0.6052,
1069,0.6055,
1070,0.6058,
1071,0.606,
1072,0.6059,
1073,0.6058,
1074,0.6056,
1075,0.6064,
1076,0.6077,
1077,0.6091,
1078,0.6095,
1079,0.6086,
1080,0.6076,
1081,0.6069,
1082,0.6073,
1083,0.6077,
1084,0.6081,
1085,0.6043,
1086,0.6006,
1087,0.5968,
1088,0.5949,
1089,0.5934,
1090,0.5918,
1091,0.5896,
1092,0.587,
1093,0.5844,
1094,0.5813,
1095,0.5776,
1096,0.5739,
1097,0.5693,
1098,0.5615,
1099,0.5537,
1100,0.5459,
1101,0.5372,
1102,0.5285,
1103,0.5199,
1104,0.5077,
1105,0.4949,
1106,0.482,
1107,0.4672,
1108,0.4512,
1109,0.4353,
1110,0.4171,
1111,0.3962,
1112,0.3753,
1113,0.3541,
1114,0.3321,
1115,0.3102,
1116,0.2884,
1117,0.269,
1118,0.2497,
1119,0.2303,
1120,0.2149,
1121,0.1998,
1122,0.1848,
1123,0.1736,
1124,0.1639,
1125,0.1542,
1126,0.1464,
1127,0.1402,
1128,0.1341,
1129,0.129,
1130,0.1256,
1131,0.1222,
1132,0.1191,
1133,0.1172,
1134,0.1152,
1135,0.1132,
1136,0.1119,
1137,0.1105,
1138,0.1092,
1139,0.1081,
1140,0.1071,